# Sweep from 15846.083Hz to 15804.608Hz step -0.345625000000003Hz delay 0.8s
# Excitation 0.001608Vpp attenuator 0 dB
# time(s), freq(Hz), absorption(nA), dispersion(nA)
69725.87 15846.083 1.7902883 -0.30074625
69726.69 15845.737 1.7866946 -0.30120572
69727.50 15845.392 1.7898897 -0.29923189
69728.32 15845.046 1.7875809 -0.30094131
69729.13 15844.701 1.7941651 -0.2961992
69729.94 15844.355 1.7941084 -0.30025973
69730.76 15844.009 1.7970642 -0.29984346
69731.57 15843.664 1.7950744 -0.30015167
69732.39 15843.318 1.7882459 -0.29893616
69733.20 15842.972 1.7959238 -0.29696085
69734.02 15842.627 1.79527 -0.29843284
69734.83 15842.281 1.7969254 -0.30247656
69735.64 15841.935 1.7872002 -0.29817483
69736.46 15841.590 1.7965243 -0.29614409
69737.27 15841.244 1.8006801 -0.29109654
69738.09 15840.899 1.7996152 -0.29794535
69738.91 15840.553 1.7937814 -0.29605508
69739.72 15840.207 1.7921512 -0.29337849
69740.54 15839.862 1.7956346 -0.29375326
69741.36 15839.516 1.7925189 -0.29740795
69742.18 15839.171 1.8001842 -0.29664054
69743.00 15838.825 1.7964146 -0.29115822
69743.81 15838.479 1.7937717 -0.28850499
69744.62 15838.134 1.7949206 -0.29229031
69745.44 15837.788 1.8021101 -0.28755528
69746.26 15837.442 1.7993865 -0.28823732
69747.07 15837.097 1.802317 -0.28441684
69747.89 15836.751 1.800712 -0.28448989
69748.70 15836.406 1.7992581 -0.28546086
69749.52 15836.060 1.8029937 -0.2769998
69750.33 15835.714 1.8026712 -0.27931725
69751.15 15835.369 1.8068488 -0.27896397
69751.97 15835.023 1.8048311 -0.27668969
69752.78 15834.677 1.8054714 -0.28020187
69753.60 15834.332 1.8109965 -0.27555751
69754.42 15833.986 1.8128048 -0.27959172
69755.23 15833.641 1.8138459 -0.27560543
69756.04 15833.295 1.8194577 -0.27615067
69756.86 15832.949 1.8103981 -0.26956107
69757.67 15832.604 1.8159673 -0.27477083
69758.49 15832.258 1.819596 -0.26508232
69759.31 15831.912 1.8232058 -0.26445778
69760.13 15831.567 1.8289239 -0.2569839
69760.95 15831.221 1.8300428 -0.2622952
69761.76 15830.876 1.8358921 -0.25957976
69762.58 15830.530 1.8322952 -0.26208028
69763.40 15830.184 1.838067 -0.25971656
69764.22 15829.839 1.8465706 -0.26209298
69765.03 15829.493 1.8535906 -0.25454878
69765.85 15829.147 1.8589235 -0.25506048
69766.66 15828.802 1.8655667 -0.25784516
69767.48 15828.456 1.8666769 -0.25810024
69768.30 15828.111 1.8755461 -0.25976038
69769.11 15827.765 1.8896865 -0.26400485
69769.92 15827.419 1.8989431 -0.26949681
69770.74 15827.074 1.9095557 -0.27105253
69771.56 15826.728 1.9141089 -0.28314327
69772.37 15826.382 1.9247323 -0.28241783
69773.19 15826.037 1.9275108 -0.3028558
69774.00 15825.691 1.9342156 -0.30784361
69774.82 15825.345 1.9408797 -0.32175987
69775.64 15825.000 1.9304214 -0.33984057
69776.46 15824.654 1.9336101 -0.35245662
69777.28 15824.309 1.9272168 -0.3693286
69778.09 15823.963 1.9190218 -0.3756073
69778.91 15823.617 1.9069082 -0.38034469
69779.73 15823.272 1.893229 -0.3958497
69780.54 15822.926 1.887243 -0.3962636
69781.36 15822.581 1.8793172 -0.39590779
69782.17 15822.235 1.8649116 -0.39673557
69782.99 15821.889 1.8585114 -0.39942412
69783.81 15821.544 1.8511802 -0.39622753
69784.62 15821.198 1.8502471 -0.39548911
69785.44 15820.852 1.8479971 -0.39017186
69786.26 15820.507 1.8430545 -0.39053992
69787.07 15820.161 1.8424502 -0.39490916
69787.89 15819.816 1.8322244 -0.38765529
69788.70 15819.470 1.8298039 -0.39022294
69789.52 15819.124 1.8246162 -0.3886438
69790.33 15818.779 1.82591 -0.38826738
69791.15 15818.433 1.8255056 -0.38291978
69791.96 15818.087 1.8152333 -0.38459686
69792.78 15817.742 1.8214026 -0.3839277
69793.59 15817.396 1.8104124 -0.37835392
69794.41 15817.051 1.8145864 -0.37602578
69795.23 15816.705 1.8138614 -0.37551905
69796.04 15816.359 1.8098457 -0.37051814
69796.86 15816.014 1.8087609 -0.37699078
69797.68 15815.668 1.8039966 -0.37051694
69798.50 15815.322 1.8073342 -0.3714118
69799.32 15814.977 1.8085652 -0.37117843
69800.13 15814.631 1.8061336 -0.36960671
69800.95 15814.285 1.8012319 -0.37166481
69801.76 15813.940 1.7984374 -0.36708374
69802.58 15813.594 1.8045738 -0.37115871
69803.40 15813.249 1.7984502 -0.36763333
69804.22 15812.903 1.8008827 -0.36480893
69805.03 15812.557 1.7979635 -0.36967364
69805.85 15812.212 1.8005339 -0.36543375
69806.66 15811.866 1.7983332 -0.36259678
69807.48 15811.521 1.7945849 -0.36113764
69808.30 15811.175 1.7992692 -0.36309436
69809.11 15810.829 1.7993673 -0.36350548
69809.93 15810.484 1.7911419 -0.35998428
69810.74 15810.138 1.7992332 -0.35412222
69811.56 15809.792 1.7867412 -0.3584249
69812.38 15809.447 1.7932176 -0.35758796
69813.19 15809.101 1.7897635 -0.36413593
69814.01 15808.755 1.7998075 -0.35335356
69814.83 15808.410 1.7954856 -0.35247007
69815.64 15808.064 1.792675 -0.35949759
69816.46 15807.719 1.7940048 -0.35727439
69817.28 15807.373 1.7941607 -0.3560626
69818.10 15807.027 1.7976963 -0.3595971
69818.91 15806.682 1.7917858 -0.35735232
69819.73 15806.336 1.7887493 -0.35319277
69820.55 15805.990 1.7884064 -0.35283071
69821.37 15805.645 1.7966765 -0.35325959
69822.18 15805.299 1.7941402 -0.35575172
69823.00 15804.954 1.793722 -0.34403868
69823.81 15804.608 1.7926616 -0.35044062
