# Sweep from 15805.058Hz to 15845.622Hz step 0.3380333333333207Hz delay 0.8s
# Excitation 0.001779Vpp attenuator 0 dB
# time(s), freq(Hz), absorption(nA), dispersion(nA)
71010.35 15805.058 1.9866861 -0.36375116
71011.16 15805.396 1.9745073 -0.36375621
71011.98 15805.734 1.98874 -0.35807258
71012.79 15806.072 1.9868651 -0.3617931
71013.60 15806.410 1.9873635 -0.36215215
71014.42 15806.748 1.9832271 -0.35965923
71015.24 15807.086 1.9823967 -0.36402591
71016.06 15807.424 1.9822189 -0.36689045
71016.87 15807.762 1.9837325 -0.36313889
71017.69 15808.100 1.9804322 -0.36466705
71018.50 15808.438 1.984492 -0.36499179
71019.32 15808.776 1.9831136 -0.3631842
71020.13 15809.114 1.9845481 -0.36710216
71020.95 15809.452 1.9836461 -0.36947137
71021.76 15809.790 1.9848958 -0.3699939
71022.58 15810.129 1.9845522 -0.36908037
71023.40 15810.467 1.9862628 -0.37437769
71024.22 15810.805 1.983014 -0.36888116
71025.03 15811.143 1.9892711 -0.36780909
71025.85 15811.481 1.9911392 -0.37022983
71026.66 15811.819 1.9850845 -0.37195986
71027.48 15812.157 1.9879208 -0.37043267
71028.29 15812.495 1.9876215 -0.37135038
71029.11 15812.833 1.9909774 -0.37148286
71029.93 15813.171 1.991848 -0.37228085
71030.75 15813.509 1.9939082 -0.37654675
71031.56 15813.847 1.99133 -0.37753611
71032.38 15814.185 1.9906099 -0.37636789
71033.19 15814.523 1.9901609 -0.38160741
71034.01 15814.861 1.9939966 -0.3794722
71034.83 15815.199 1.9960066 -0.38642523
71035.64 15815.537 1.9982156 -0.38580902
71036.46 15815.875 2.0012819 -0.38738165
71037.27 15816.213 1.9941256 -0.3842915
71038.09 15816.551 2.0061027 -0.38463693
71038.90 15816.889 2.003678 -0.38690672
71039.72 15817.227 2.0014686 -0.39422571
71040.53 15817.565 2.0110094 -0.38942611
71041.35 15817.903 2.0095222 -0.3925939
71042.17 15818.241 2.0131833 -0.3966654
71042.98 15818.579 2.0159298 -0.39710653
71043.80 15818.917 2.0098569 -0.39324041
71044.61 15819.255 2.0194311 -0.40071009
71045.43 15819.593 2.0229543 -0.40633802
71046.25 15819.931 2.0217083 -0.4001412
71047.07 15820.270 2.0313378 -0.40503861
71047.88 15820.608 2.0317411 -0.4099692
71048.70 15820.946 2.0410175 -0.40768873
71049.51 15821.284 2.0514831 -0.40631139
71050.33 15821.622 2.0544921 -0.40637775
71051.14 15821.960 2.0600587 -0.4134981
71051.95 15822.298 2.0694772 -0.41274245
71052.77 15822.636 2.0741977 -0.40905744
71053.59 15822.974 2.0865548 -0.40627131
71054.40 15823.312 2.0959569 -0.40154032
71055.21 15823.650 2.108779 -0.40053166
71056.03 15823.988 2.1211911 -0.38920626
71056.85 15824.326 2.1339395 -0.37711555
71057.66 15824.664 2.1424853 -0.35627005
71058.48 15825.002 2.1457388 -0.34639606
71059.29 15825.340 2.1466471 -0.32146053
71060.11 15825.678 2.1463338 -0.31041662
71060.93 15826.016 2.1384776 -0.2927747
71061.74 15826.354 2.1295996 -0.28535715
71062.56 15826.692 2.1160927 -0.27475221
71063.37 15827.030 2.1152514 -0.26078283
71064.19 15827.368 2.0966979 -0.26266957
71065.00 15827.706 2.0952543 -0.25566109
71065.82 15828.044 2.07886 -0.25205011
71066.64 15828.382 2.0744842 -0.24638513
71067.45 15828.720 2.0692687 -0.25504198
71068.26 15829.058 2.0568084 -0.250933
71069.08 15829.396 2.0592463 -0.25530156
71069.90 15829.734 2.0452073 -0.25667893
71070.71 15830.072 2.0362227 -0.25522229
71071.53 15830.410 2.0334257 -0.26221116
71072.35 15830.749 2.027642 -0.26348044
71073.16 15831.087 2.0227274 -0.26058464
71073.98 15831.425 2.0163934 -0.26394258
71074.79 15831.763 2.0139873 -0.2629173
71075.61 15832.101 2.0138996 -0.26232593
71076.42 15832.439 2.0110795 -0.26870654
71077.24 15832.777 2.0074597 -0.27106211
71078.05 15833.115 2.003994 -0.27826525
71078.87 15833.453 2.0009775 -0.27546236
71079.69 15833.791 2.0025316 -0.27680139
71080.50 15834.129 2.0002412 -0.27249092
71081.32 15834.467 1.9974204 -0.28004152
71082.13 15834.805 1.9954598 -0.27782704
71082.95 15835.143 1.9947674 -0.27991672
71083.76 15835.481 1.9973768 -0.28559907
71084.58 15835.819 1.9964391 -0.28404551
71085.40 15836.157 1.9919776 -0.28075664
71086.22 15836.495 1.9895217 -0.29034337
71087.03 15836.833 1.9931767 -0.28760641
71087.85 15837.171 1.990798 -0.27983117
71088.67 15837.509 1.9905858 -0.28653881
71089.49 15837.847 1.9881054 -0.28981984
71090.31 15838.185 1.9894067 -0.2920261
71091.13 15838.523 1.9915365 -0.29163633
71091.94 15838.861 1.9857819 -0.29230637
71092.76 15839.199 1.9852821 -0.29483027
71093.57 15839.537 1.9857684 -0.29371739
71094.39 15839.875 1.9857334 -0.2990119
71095.20 15840.213 1.9885076 -0.29330488
71096.02 15840.551 1.9889467 -0.29661584
71096.83 15840.890 1.9829045 -0.29504707
71097.65 15841.228 1.9867878 -0.29618096
71098.46 15841.566 1.9925983 -0.29024918
71099.28 15841.904 1.9874601 -0.30224734
71100.09 15842.242 1.9858617 -0.30059456
71100.91 15842.580 1.985238 -0.29895205
71101.73 15842.918 1.9827917 -0.29471741
71102.54 15843.256 1.9834672 -0.30039055
71103.36 15843.594 1.9862514 -0.30427302
71104.17 15843.932 1.9801469 -0.30129593
71104.99 15844.270 1.9791803 -0.29924342
71105.80 15844.608 1.980537 -0.30924738
71106.62 15844.946 1.9874979 -0.30672081
71107.43 15845.284 1.986029 -0.30216489
71108.25 15845.622 1.9772081 -0.30147652
