# Sweep from 15846.274Hz to 15804.357Hz step -0.34930833333332884Hz delay 0.8s
# Excitation 0.001528Vpp attenuator 0 dB
# time(s), freq(Hz), absorption(nA), dispersion(nA)
68737.84 15846.274 1.7041191 -0.3015202
68738.66 15845.925 1.6960278 -0.29981908
68739.47 15845.575 1.7020212 -0.30246943
68740.29 15845.226 1.7040803 -0.29702002
68741.10 15844.877 1.7017899 -0.29790399
68741.92 15844.527 1.6959767 -0.30196992
68742.73 15844.178 1.7034865 -0.29959165
68743.55 15843.829 1.705895 -0.29841934
68744.37 15843.480 1.701343 -0.29526171
68745.18 15843.130 1.6980538 -0.29562148
68746.00 15842.781 1.7009066 -0.29620458
68746.82 15842.432 1.7010479 -0.29625997
68747.64 15842.082 1.7075964 -0.29561906
68748.46 15841.733 1.7073652 -0.29135634
68749.27 15841.384 1.7090592 -0.29665205
68750.09 15841.034 1.703602 -0.29402725
68750.90 15840.685 1.7038268 -0.29245831
68751.72 15840.336 1.7067179 -0.28652843
68752.54 15839.986 1.7058884 -0.28926431
68753.35 15839.637 1.6992142 -0.29597132
68754.17 15839.288 1.7019571 -0.2907675
68754.99 15838.939 1.7032339 -0.28961315
68755.80 15838.589 1.7066787 -0.28961617
68756.62 15838.240 1.7025397 -0.29594315
68757.44 15837.891 1.7033232 -0.28690437
68758.25 15837.541 1.7088096 -0.28914147
68759.07 15837.192 1.7053812 -0.28371164
68759.89 15836.843 1.7067961 -0.28353892
68760.70 15836.493 1.7063986 -0.28171635
68761.52 15836.144 1.7151176 -0.28388095
68762.33 15835.795 1.7017172 -0.28215098
68763.14 15835.445 1.7084766 -0.28429508
68763.96 15835.096 1.7100069 -0.28340645
68764.78 15834.747 1.7123149 -0.28003271
68765.60 15834.398 1.7118498 -0.27948744
68766.41 15834.048 1.7227361 -0.2720268
68767.22 15833.699 1.715082 -0.27695802
68768.04 15833.350 1.7217136 -0.27239113
68768.86 15833.000 1.7243283 -0.27701461
68769.67 15832.651 1.7262549 -0.27565014
68770.49 15832.302 1.7221095 -0.27095135
68771.30 15831.952 1.7300162 -0.274977
68772.12 15831.603 1.7314612 -0.26449882
68772.94 15831.254 1.7305679 -0.26070038
68773.75 15830.904 1.7313301 -0.26741759
68774.57 15830.555 1.7364362 -0.26704336
68775.38 15830.206 1.747963 -0.26375696
68776.20 15829.857 1.7478328 -0.25571956
68777.01 15829.507 1.7567373 -0.25911368
68777.83 15829.158 1.7580943 -0.26427853
68778.65 15828.809 1.7721042 -0.25838835
68779.47 15828.459 1.7704945 -0.25518318
68780.29 15828.110 1.7866182 -0.25373865
68781.10 15827.761 1.7945822 -0.26249222
68781.91 15827.411 1.800482 -0.26579309
68782.73 15827.062 1.8034065 -0.2715523
68783.54 15826.713 1.8237579 -0.27625211
68784.36 15826.363 1.8255852 -0.28427573
68785.18 15826.014 1.8354802 -0.3040212
68785.99 15825.665 1.834342 -0.31035765
68786.81 15825.316 1.8353232 -0.33102631
68787.62 15824.966 1.8344057 -0.33720065
68788.44 15824.617 1.8307675 -0.35381154
68789.26 15824.268 1.8235064 -0.36942123
68790.08 15823.918 1.8138339 -0.37282314
68790.90 15823.569 1.8072433 -0.37894625
68791.71 15823.220 1.795669 -0.3856421
68792.54 15822.870 1.7950281 -0.38677439
68793.35 15822.521 1.7840955 -0.38932453
68794.16 15822.172 1.7704516 -0.38832064
68794.98 15821.822 1.7677452 -0.39236573
68795.79 15821.473 1.761934 -0.39275918
68796.61 15821.124 1.7555309 -0.3886469
68797.43 15820.774 1.7477903 -0.39162691
68798.25 15820.425 1.7460195 -0.38351044
68799.06 15820.076 1.7390055 -0.38084463
68799.88 15819.727 1.7346414 -0.38548572
68800.69 15819.377 1.7326093 -0.3827692
68801.50 15819.028 1.7262155 -0.3824743
68802.32 15818.679 1.7339877 -0.38263411
68803.13 15818.329 1.730021 -0.38184723
68803.95 15817.980 1.7220871 -0.37801829
68804.76 15817.631 1.72592 -0.37915507
68805.58 15817.281 1.7204711 -0.38268234
68806.39 15816.932 1.7190117 -0.37827596
68807.21 15816.583 1.7149675 -0.37600449
68808.03 15816.233 1.7183324 -0.3771973
68808.84 15815.884 1.7174856 -0.3719972
68809.66 15815.535 1.7127597 -0.36771863
68810.47 15815.186 1.7151972 -0.36944326
68811.28 15814.836 1.7119589 -0.36474029
68812.10 15814.487 1.7104115 -0.36949052
68812.92 15814.138 1.7047487 -0.36587411
68813.73 15813.788 1.7079278 -0.36764004
68814.55 15813.439 1.7103446 -0.36039251
68815.36 15813.090 1.7059881 -0.36487103
68816.18 15812.740 1.7069347 -0.36449924
68817.00 15812.391 1.7082 -0.36408102
68817.81 15812.042 1.71153 -0.36111285
68818.63 15811.692 1.7099369 -0.36070065
68819.44 15811.343 1.703937 -0.36258226
68820.26 15810.994 1.708207 -0.36012005
68821.08 15810.645 1.7011378 -0.35513779
68821.89 15810.295 1.7116087 -0.35207137
68822.71 15809.946 1.7079446 -0.35455227
68823.53 15809.597 1.703614 -0.35320801
68824.34 15809.247 1.6976805 -0.35366568
68825.16 15808.898 1.7039011 -0.35226981
68825.97 15808.549 1.7052751 -0.35191374
68826.79 15808.199 1.7084641 -0.3504467
68827.61 15807.850 1.7045357 -0.35044528
68828.43 15807.501 1.7022844 -0.35660668
68829.24 15807.151 1.7003504 -0.35494332
68830.06 15806.802 1.7049791 -0.35385446
68830.87 15806.453 1.6941914 -0.35473536
68831.69 15806.104 1.697874 -0.3520573
68832.51 15805.754 1.7036826 -0.34708546
68833.33 15805.405 1.7035385 -0.3493152
68834.14 15805.056 1.6996028 -0.35359247
68834.96 15804.706 1.7019393 -0.34575243
68835.78 15804.357 1.7013032 -0.34740879
