# Sweep from 15836.118Hz to 15815.074Hz step -0.1753666666666656Hz delay 0.9s
# Excitation 0.001872Vpp attenuator 0 dB
# time(s), freq(Hz), absorption(nA), dispersion(nA)
10942.69 15836.118 2.0985663 -0.27726537
10943.61 15835.943 2.0968737 -0.26749166
10944.52 15835.767 2.0998152 -0.2615339
10945.43 15835.592 2.0899759 -0.26269373
10946.35 15835.417 2.1004953 -0.2684981
10947.26 15835.241 2.1022311 -0.26302652
10948.18 15835.066 2.100802 -0.26438707
10949.10 15834.890 2.0947552 -0.25937723
10950.01 15834.715 2.1035523 -0.25738487
10950.92 15834.540 2.0985908 -0.25602137
10951.84 15834.364 2.1004685 -0.25567357
10952.75 15834.189 2.1092117 -0.25692165
10953.67 15834.014 2.1062101 -0.25474765
10954.58 15833.838 2.1053495 -0.24828151
10955.49 15833.663 2.104141 -0.24958121
10956.41 15833.488 2.1089984 -0.2491708
10957.32 15833.312 2.1104802 -0.24610566
10958.24 15833.137 2.1105068 -0.2423667
10959.15 15832.961 2.1156839 -0.23910124
10960.07 15832.786 2.1115729 -0.23651228
10960.99 15832.611 2.1165104 -0.234952
10961.90 15832.435 2.1176888 -0.23382361
10962.82 15832.260 2.1205965 -0.23117326
10963.73 15832.085 2.1210203 -0.22643415
10964.65 15831.909 2.126902 -0.22954302
10965.57 15831.734 2.1305866 -0.22589668
10966.49 15831.558 2.1269702 -0.2199741
10967.40 15831.383 2.1362246 -0.22033154
10968.32 15831.208 2.1353931 -0.21268191
10969.24 15831.032 2.1369056 -0.20813471
10970.15 15830.857 2.1450467 -0.20552316
10971.07 15830.682 2.1476001 -0.20675007
10971.98 15830.506 2.1493743 -0.19835235
10972.90 15830.331 2.1570052 -0.19584986
10973.82 15830.156 2.1648873 -0.19686608
10974.73 15829.980 2.163627 -0.19498684
10975.65 15829.805 2.1756641 -0.18757048
10976.56 15829.629 2.1878682 -0.18620332
10977.48 15829.454 2.180828 -0.18264627
10978.39 15829.279 2.1894825 -0.181841
10979.31 15829.103 2.1964627 -0.17311547
10980.23 15828.928 2.2049194 -0.17529005
10981.15 15828.753 2.2104987 -0.17245857
10982.07 15828.577 2.2191555 -0.17138004
10982.98 15828.402 2.229971 -0.15955901
10983.90 15828.227 2.2423321 -0.16030423
10984.81 15828.051 2.2473009 -0.16484201
10985.73 15827.876 2.2659833 -0.15868774
10986.64 15827.700 2.275247 -0.16108913
10987.56 15827.525 2.2858965 -0.15515103
10988.47 15827.350 2.2962729 -0.15955274
10989.39 15827.174 2.3083546 -0.16383964
10990.30 15826.999 2.3193609 -0.16532988
10991.22 15826.824 2.3302416 -0.16462141
10992.14 15826.648 2.3423686 -0.17614329
10993.05 15826.473 2.3513733 -0.1709485
10993.96 15826.297 2.3679775 -0.17598268
10994.88 15826.122 2.380511 -0.18358635
10995.80 15825.947 2.391017 -0.18999722
10996.71 15825.771 2.3952862 -0.19475358
10997.62 15825.596 2.414452 -0.21051541
10998.54 15825.421 2.4248045 -0.22260164
10999.46 15825.245 2.4390938 -0.23095969
11000.37 15825.070 2.4415374 -0.24759154
11001.29 15824.895 2.45308 -0.27277457
11002.20 15824.719 2.4608471 -0.29477894
11003.12 15824.544 2.4623876 -0.33595225
11004.03 15824.368 2.4568892 -0.3568633
11004.95 15824.193 2.2506072 -0.52547597
11005.86 15824.018 2.185295 -0.48347783
11006.78 15823.842 2.1702294 -0.48014539
11007.69 15823.667 2.1640799 -0.47888659
11008.61 15823.492 2.1580067 -0.47717384
11009.53 15823.316 2.1489398 -0.46776654
11010.44 15823.141 2.1444735 -0.45763755
11011.35 15822.966 2.1361832 -0.45894939
11012.27 15822.790 2.1350515 -0.4477009
11013.18 15822.615 2.1313497 -0.44985603
11014.10 15822.439 2.1230728 -0.44362977
11015.02 15822.264 2.127261 -0.44457272
11015.93 15822.089 2.1170081 -0.43844418
11016.85 15821.913 2.1147448 -0.43497718
11017.77 15821.738 2.1211533 -0.4336888
11018.69 15821.563 2.1088263 -0.43415295
11019.60 15821.387 2.1135245 -0.42883218
11020.52 15821.212 2.1118915 -0.43055945
11021.43 15821.036 2.107007 -0.4286359
11022.35 15820.861 2.1120773 -0.42087248
11023.27 15820.686 2.1070098 -0.41894847
11024.18 15820.510 2.108181 -0.41070811
11025.10 15820.335 2.1020426 -0.4173383
11026.01 15820.160 2.1014066 -0.41642207
11026.93 15819.984 2.099056 -0.41021312
11027.84 15819.809 2.0990458 -0.41631142
11028.76 15819.634 2.1021665 -0.40836278
11029.68 15819.458 2.0990931 -0.41393264
11030.59 15819.283 2.1024223 -0.40612727
11031.51 15819.107 2.1027333 -0.4065073
11032.43 15818.932 2.0990101 -0.40257953
11033.34 15818.757 2.1008573 -0.39792545
11034.26 15818.581 2.0933003 -0.40239482
11035.17 15818.406 2.0979269 -0.40246928
11036.09 15818.231 2.0963012 -0.40462407
11037.01 15818.055 2.1025517 -0.40070762
11037.92 15817.880 2.0918869 -0.40460219
11038.84 15817.704 2.0934301 -0.39808876
11039.76 15817.529 2.093655 -0.39572006
11040.68 15817.354 2.0920615 -0.39112098
11041.60 15817.178 2.0936113 -0.39824073
11042.51 15817.003 2.0947382 -0.38638825
11043.43 15816.828 2.0950463 -0.38815168
11044.35 15816.652 2.0872806 -0.38748158
11045.27 15816.477 2.092175 -0.38943537
11046.19 15816.302 2.0916154 -0.38408677
11047.10 15816.126 2.088326 -0.38950799
11048.02 15815.951 2.09054 -0.38296662
11048.93 15815.775 2.0945693 -0.3876265
11049.85 15815.600 2.0857342 -0.38972158
11050.76 15815.425 2.0892101 -0.38315619
11051.68 15815.249 2.0915695 -0.38037743
11052.59 15815.074 2.0843843 -0.38126959
