# Sweep from 15804.260Hz to 15840.078Hz step 0.2984833333333275Hz delay 0.8s
# Excitation 0.004669Vpp attenuator 0 dB
# time(s), freq(Hz), absorption(nA), dispersion(nA)
82079.24 15804.260 5.2566952 -0.47798164
82080.06 15804.558 5.255245 -0.47973941
82080.87 15804.857 5.2542432 -0.47731515
82081.69 15805.155 5.2604728 -0.48093926
82082.51 15805.454 5.2572977 -0.4843381
82083.32 15805.752 5.2579226 -0.48622098
82084.14 15806.051 5.2565856 -0.48440165
82084.96 15806.349 5.261476 -0.48415615
82085.77 15806.648 5.258381 -0.48861949
82086.59 15806.946 5.2571204 -0.48645336
82087.40 15807.245 5.2551923 -0.48839013
82088.22 15807.543 5.2580713 -0.49115329
82089.03 15807.842 5.2549758 -0.4883106
82089.85 15808.140 5.266058 -0.48632165
82090.67 15808.439 5.2585629 -0.49260683
82091.48 15808.737 5.2632572 -0.49617068
82092.30 15809.036 5.2618107 -0.498215
82093.12 15809.334 5.2625805 -0.49619393
82093.94 15809.633 5.2635901 -0.49854452
82094.75 15809.931 5.264862 -0.50025471
82095.57 15810.230 5.2652349 -0.50420385
82096.39 15810.528 5.2658415 -0.50489075
82097.21 15810.827 5.2642654 -0.50621537
82098.03 15811.125 5.2683049 -0.50508879
82098.84 15811.424 5.2675641 -0.50979185
82099.66 15811.722 5.2711862 -0.51360308
82100.47 15812.021 5.2707669 -0.51123408
82101.29 15812.319 5.2717596 -0.51679859
82102.11 15812.618 5.2711407 -0.51365782
82102.93 15812.916 5.2753817 -0.51910206
82103.74 15813.215 5.2762866 -0.52021255
82104.55 15813.513 5.2706541 -0.5233552
82105.37 15813.811 5.2829296 -0.525708
82106.19 15814.110 5.2808205 -0.53187381
82107.00 15814.408 5.2825708 -0.53635438
82107.82 15814.707 5.2783639 -0.53459132
82108.63 15815.005 5.2862779 -0.54208869
82109.45 15815.304 5.2855307 -0.53868285
82110.26 15815.602 5.2948981 -0.54865541
82111.08 15815.901 5.2926034 -0.54875181
82111.90 15816.199 5.296481 -0.55272659
82112.72 15816.498 5.3010358 -0.55538715
82113.54 15816.796 5.3050053 -0.56206045
82114.35 15817.095 5.3093204 -0.57017326
82115.17 15817.393 5.3097338 -0.56891173
82115.99 15817.692 5.3190279 -0.57700845
82116.80 15817.990 5.3271483 -0.57916623
82117.62 15818.289 5.3250578 -0.58553945
82118.43 15818.587 5.332543 -0.59302266
82119.25 15818.886 5.3503359 -0.60560325
82120.06 15819.184 5.3629428 -0.61803451
82120.88 15819.483 5.3791591 -0.62393656
82121.70 15819.781 5.3998992 -0.63641789
82122.51 15820.080 5.4307375 -0.65162368
82123.33 15820.378 5.5842374 -0.63004927
82124.15 15820.677 5.730235 -0.24270423
82124.96 15820.975 5.7184484 -0.22761435
82125.77 15821.274 5.7076622 -0.20698211
82126.59 15821.572 5.6903609 -0.20001995
82127.40 15821.871 5.6797926 -0.18530258
82128.22 15822.169 5.6704653 -0.17350511
82129.03 15822.467 5.6578992 -0.16937379
82129.85 15822.766 5.6455128 -0.16051754
82130.67 15823.064 5.6320455 -0.15525433
82131.48 15823.363 5.6163517 -0.1524236
82132.30 15823.661 5.6030708 -0.14897731
82133.12 15823.960 5.5954056 -0.13923521
82133.93 15824.258 5.5814539 -0.14378227
82134.75 15824.557 5.5645842 -0.14203295
82135.57 15824.855 5.5549535 -0.14211538
82136.39 15825.154 5.5392716 -0.14043219
82137.20 15825.452 5.5252681 -0.14169575
82138.01 15825.751 5.5156697 -0.15015404
82138.83 15826.049 5.5015371 -0.14142749
82139.65 15826.348 5.4969651 -0.1495756
82140.46 15826.646 5.481877 -0.1490735
82141.28 15826.945 5.4738612 -0.15661179
82142.09 15827.243 5.4565544 -0.15201884
82142.91 15827.542 5.4467087 -0.16107599
82143.73 15827.840 5.4393358 -0.15955938
82144.55 15828.139 5.4338184 -0.1647706
82145.36 15828.437 5.4168358 -0.17074375
82146.18 15828.736 5.4071429 -0.1777083
82147.00 15829.034 5.3956906 -0.17888122
82147.81 15829.333 5.3880203 -0.19003946
82148.62 15829.631 5.37509 -0.1874847
82149.44 15829.930 5.3774652 -0.19602857
82150.26 15830.228 5.3688104 -0.19450866
82151.08 15830.527 5.3579874 -0.19930307
82151.89 15830.825 5.3513004 -0.20319244
82152.71 15831.123 5.346621 -0.21436047
82153.52 15831.422 5.3423505 -0.21462114
82154.34 15831.720 5.3315503 -0.21852554
82155.15 15832.019 5.3314429 -0.22838022
82155.96 15832.317 5.3229819 -0.23291184
82156.78 15832.616 5.3179633 -0.23808197
82157.59 15832.914 5.3156209 -0.23849572
82158.41 15833.213 5.3092876 -0.23879156
82159.22 15833.511 5.3147846 -0.24612609
82160.04 15833.810 5.3048607 -0.25097327
82160.86 15834.108 5.3014614 -0.25445769
82161.68 15834.407 5.3001518 -0.25977005
82162.49 15834.705 5.2973501 -0.25933184
82163.31 15835.004 5.2961527 -0.26323838
82164.12 15835.302 5.2979963 -0.26984523
82164.94 15835.601 5.2884629 -0.27230195
82165.76 15835.899 5.2869382 -0.2733465
82166.57 15836.198 5.2873534 -0.27719133
82167.39 15836.496 5.2807391 -0.28058474
82168.21 15836.795 5.2829582 -0.28171979
82169.02 15837.093 5.276378 -0.28398358
82169.84 15837.392 5.2825862 -0.28816643
82170.66 15837.690 5.2792475 -0.28901616
82171.48 15837.989 5.278881 -0.28675095
82172.29 15838.287 5.2765581 -0.2925949
82173.11 15838.586 5.2702189 -0.29131635
82173.92 15838.884 5.2763103 -0.29464468
82174.74 15839.183 5.2739483 -0.30480365
82175.55 15839.481 5.268726 -0.29877583
82176.37 15839.780 5.270806 -0.30200167
82177.19 15840.078 5.2700229 -0.30530481
