# Sweep from 15843.347Hz to 15806.343Hz step -0.3083666666666583Hz delay 0.8s
# Excitation 0.002671Vpp attenuator 0 dB
# time(s), freq(Hz), absorption(nA), dispersion(nA)
75259.34 15843.347 2.9758405 -0.30468655
75260.16 15843.039 2.9773826 -0.30439321
75260.97 15842.730 2.9791481 -0.30857481
75261.78 15842.422 2.9797675 -0.29840939
75262.60 15842.114 2.9753501 -0.30006905
75263.42 15841.805 2.977675 -0.30352408
75264.23 15841.497 2.9744297 -0.29619099
75265.05 15841.188 2.9799273 -0.30411067
75265.87 15840.880 2.9809223 -0.29912249
75266.69 15840.572 2.9854366 -0.29805196
75267.51 15840.263 2.9817202 -0.29912712
75268.32 15839.955 2.9817174 -0.29247377
75269.14 15839.647 2.9803844 -0.29605945
75269.95 15839.338 2.9796677 -0.28980247
75270.77 15839.030 2.9855628 -0.29309194
75271.58 15838.721 2.9808671 -0.2949962
75272.40 15838.413 2.9824473 -0.28934323
75273.22 15838.105 2.9826451 -0.28911722
75274.03 15837.796 2.9828016 -0.28697761
75274.84 15837.488 2.9878126 -0.28941622
75275.66 15837.180 2.991635 -0.28991604
75276.48 15836.871 2.9919643 -0.27355125
75277.29 15836.563 2.9932605 -0.27772026
75278.11 15836.255 2.9889154 -0.27976733
75278.92 15835.946 2.9961921 -0.27613629
75279.74 15835.638 2.9951241 -0.27647303
75280.55 15835.329 2.9957641 -0.27458117
75281.37 15835.021 2.9944026 -0.2718258
75282.19 15834.713 3.0006345 -0.27323259
75283.01 15834.404 3.003071 -0.26782018
75283.82 15834.096 3.0066685 -0.26136777
75284.64 15833.788 3.0015383 -0.26592082
75285.46 15833.479 3.0087258 -0.26405854
75286.28 15833.171 3.0137421 -0.26263916
75287.10 15832.863 3.0163274 -0.25697892
75287.91 15832.554 3.01761 -0.25870062
75288.73 15832.246 3.021242 -0.25079837
75289.55 15831.937 3.0302956 -0.25022271
75290.37 15831.629 3.0264673 -0.24814275
75291.18 15831.321 3.0334475 -0.24447007
75292.00 15831.012 3.0445444 -0.24026673
75292.81 15830.704 3.0439617 -0.24130529
75293.63 15830.396 3.0491656 -0.23711807
75294.45 15830.087 3.0553481 -0.2310594
75295.27 15829.779 3.0630181 -0.22824858
75296.08 15829.470 3.0735941 -0.23592263
75296.90 15829.162 3.0822907 -0.23016354
75297.71 15828.854 3.0832748 -0.23070582
75298.52 15828.545 3.1002512 -0.22394373
75299.34 15828.237 3.1065554 -0.22353527
75300.16 15827.929 3.120361 -0.22181351
75300.97 15827.620 3.1287591 -0.22327711
75301.79 15827.312 3.1434611 -0.22884907
75302.60 15827.004 3.1545082 -0.2337089
75303.42 15826.695 3.1684804 -0.23662794
75304.23 15826.387 3.1823638 -0.24011931
75305.04 15826.078 3.1911559 -0.25005164
75305.86 15825.770 3.2029129 -0.25452698
75306.68 15825.462 3.2219259 -0.27653508
75307.50 15825.153 3.2306427 -0.29125724
75308.32 15824.845 3.2376204 -0.31412131
75309.13 15824.537 3.2458975 -0.3323656
75309.95 15824.228 3.2436344 -0.36022024
75310.76 15823.920 3.2405451 -0.39086498
75311.57 15823.612 3.2302773 -0.41845743
75312.40 15823.303 3.2108708 -0.45004188
75313.21 15822.995 3.186417 -0.46738077
75314.03 15822.686 3.1529903 -0.48072627
75314.85 15822.378 3.1285383 -0.48874449
75315.66 15822.070 3.1107998 -0.48540738
75316.48 15821.761 3.0969272 -0.48136087
75317.30 15821.453 3.080097 -0.47982564
75318.11 15821.145 3.065182 -0.4800728
75318.93 15820.836 3.0583851 -0.4771266
75319.75 15820.528 3.0526819 -0.4716492
75320.56 15820.220 3.0412748 -0.4654685
75321.38 15819.911 3.0355382 -0.46718711
75322.20 15819.603 3.0275985 -0.463829
75323.02 15819.294 3.0308204 -0.46030868
75323.83 15818.986 3.0230465 -0.45507502
75324.65 15818.678 3.0194094 -0.45494349
75325.46 15818.369 3.0156575 -0.45021577
75326.28 15818.061 3.012706 -0.44841715
75327.10 15817.753 3.0039748 -0.45026457
75327.91 15817.444 3.0075423 -0.44708597
75328.73 15817.136 3.0074118 -0.44398652
75329.55 15816.827 3.0014508 -0.43461998
75330.37 15816.519 2.999547 -0.43846791
75331.18 15816.211 2.997913 -0.43584171
75332.00 15815.902 2.9943474 -0.43828095
75332.82 15815.594 2.9994756 -0.42800417
75333.64 15815.286 2.9936834 -0.43345122
75334.46 15814.977 2.9927887 -0.43234144
75335.28 15814.669 2.9899179 -0.4214827
75336.09 15814.361 2.9915925 -0.42540094
75336.91 15814.052 2.987387 -0.42646244
75337.73 15813.744 2.9898376 -0.41746245
75338.54 15813.435 2.9828996 -0.41342972
75339.36 15813.127 2.9882924 -0.41505982
75340.18 15812.819 2.989078 -0.41395936
75340.99 15812.510 2.9881689 -0.41856254
75341.81 15812.202 2.9913806 -0.4111005
75342.63 15811.894 2.9823836 -0.42192067
75343.44 15811.585 2.983689 -0.41796116
75344.26 15811.277 2.9843436 -0.41120558
75345.08 15810.969 2.9805497 -0.41091934
75345.90 15810.660 2.9855285 -0.41031055
75346.71 15810.352 2.9781452 -0.40975476
75347.54 15810.043 2.9805524 -0.40993456
75348.36 15809.735 2.977009 -0.40656136
75349.17 15809.427 2.9825285 -0.40482152
75349.99 15809.118 2.9834073 -0.40512532
75350.81 15808.810 2.9752036 -0.40273582
75351.63 15808.502 2.9716443 -0.39946707
75352.44 15808.193 2.9789712 -0.39995564
75353.26 15807.885 2.9709911 -0.40281185
75354.08 15807.576 2.9789646 -0.40656127
75354.89 15807.268 2.9723017 -0.39795771
75355.71 15806.960 2.9706316 -0.40413988
75356.53 15806.651 2.9747391 -0.39707473
75357.35 15806.343 2.9754108 -0.40161908
