# Sweep from 15838.736Hz to 15815.159Hz step -0.19647500000000945Hz delay 0.9s
# Excitation 0.000920Vpp attenuator 0 dB
# time(s), freq(Hz), absorption(nA), dispersion(nA)
7836.26 15838.736 1.0260273 -0.2884112
7837.18 15838.540 1.0305708 -0.28690258
7838.09 15838.343 1.0255677 -0.28595321
7839.01 15838.147 1.0203676 -0.28412845
7839.93 15837.950 1.0220953 -0.28711423
7840.85 15837.754 1.0232765 -0.28405711
7841.77 15837.557 1.0259614 -0.28620966
7842.69 15837.361 1.0283973 -0.27765924
7843.60 15837.164 1.0263192 -0.28063599
7844.51 15836.968 1.0260724 -0.28357107
7845.43 15836.771 1.0246753 -0.28096056
7846.35 15836.575 1.0270535 -0.28033583
7847.27 15836.378 1.0254887 -0.27734677
7848.19 15836.182 1.030142 -0.28084341
7849.10 15835.985 1.0308515 -0.27910184
7850.01 15835.789 1.0269193 -0.2834208
7850.93 15835.592 1.0305662 -0.27326575
7851.84 15835.396 1.0267926 -0.27731011
7852.76 15835.199 1.0294781 -0.27131676
7853.68 15835.003 1.0278105 -0.27867839
7854.59 15834.807 1.0338937 -0.27294166
7855.51 15834.610 1.0320498 -0.27803006
7856.42 15834.414 1.0356192 -0.27424286
7857.33 15834.217 1.0309916 -0.27098727
7858.25 15834.021 1.0291863 -0.27184913
7859.17 15833.824 1.0359622 -0.27259239
7860.08 15833.628 1.0329099 -0.26975641
7861.00 15833.431 1.0333812 -0.27373542
7861.91 15833.235 1.0369293 -0.26516113
7862.83 15833.038 1.0379592 -0.26796596
7863.75 15832.842 1.0406981 -0.26245061
7864.66 15832.645 1.038627 -0.26332981
7865.58 15832.449 1.0389077 -0.26410393
7866.49 15832.252 1.0399799 -0.26044276
7867.41 15832.056 1.0384929 -0.26103575
7868.32 15831.859 1.0406663 -0.25912757
7869.24 15831.663 1.0450996 -0.26086084
7870.15 15831.466 1.0444915 -0.25312454
7871.07 15831.270 1.0427693 -0.25145616
7871.99 15831.073 1.0449153 -0.25335365
7872.90 15830.877 1.0549793 -0.24703945
7873.82 15830.681 1.0536351 -0.24354077
7874.74 15830.484 1.0572658 -0.24811874
7875.65 15830.288 1.0639578 -0.2468868
7876.56 15830.091 1.0711108 -0.24036265
7877.48 15829.895 1.0740436 -0.24316319
7878.40 15829.698 1.0797377 -0.24188157
7879.31 15829.502 1.0830361 -0.24297168
7880.23 15829.305 1.0906695 -0.23992615
7881.15 15829.109 1.0941532 -0.23213151
7882.06 15828.912 1.0992098 -0.23520649
7882.98 15828.716 1.1098947 -0.23910795
7883.89 15828.519 1.1170495 -0.23850004
7884.81 15828.323 1.121167 -0.24051718
7885.73 15828.126 1.1335153 -0.24535709
7886.65 15827.930 1.1417512 -0.25465516
7887.56 15827.733 1.1497559 -0.25714553
7888.47 15827.537 1.155762 -0.26715355
7889.39 15827.340 1.1628904 -0.2791493
7890.31 15827.144 1.1657424 -0.29456118
7891.23 15826.948 1.1719908 -0.300354
7892.14 15826.751 1.17458 -0.31401018
7893.05 15826.555 1.1677225 -0.33560767
7893.96 15826.358 1.1640238 -0.35204854
7894.88 15826.162 1.1526436 -0.3608875
7895.80 15825.965 1.1433032 -0.37275342
7896.71 15825.769 1.1293757 -0.37951406
7897.63 15825.572 1.1229145 -0.38198576
7898.54 15825.376 1.113994 -0.38105415
7899.46 15825.179 1.1011589 -0.38179294
7900.37 15824.983 1.0904134 -0.38299214
7901.29 15824.786 1.0842745 -0.38067901
7902.21 15824.590 1.0742757 -0.38127422
7903.13 15824.393 1.0712838 -0.37925653
7904.05 15824.197 1.0669394 -0.37974755
7904.96 15824.000 1.0623751 -0.371108
7905.88 15823.804 1.0640018 -0.37579829
7906.80 15823.607 1.0606711 -0.36870861
7907.71 15823.411 1.0581263 -0.3670491
7908.63 15823.214 1.0586774 -0.36916754
7909.55 15823.018 1.0561415 -0.3697989
7910.47 15822.822 1.0485041 -0.36367555
7911.38 15822.625 1.0471489 -0.36303484
7912.29 15822.429 1.0489553 -0.36043497
7913.21 15822.232 1.0419033 -0.35965505
7914.13 15822.036 1.0436063 -0.36180495
7915.05 15821.839 1.0424801 -0.35674461
7915.96 15821.643 1.0430107 -0.36111555
7916.88 15821.446 1.0410519 -0.35631314
7917.79 15821.250 1.0358422 -0.35652448
7918.70 15821.053 1.0368949 -0.35598555
7919.62 15820.857 1.0420327 -0.34814008
7920.54 15820.660 1.0371715 -0.35082329
7921.45 15820.464 1.0357998 -0.35920198
7922.37 15820.267 1.0324515 -0.35271421
7923.28 15820.071 1.0344615 -0.34963557
7924.20 15819.874 1.034801 -0.34369759
7925.11 15819.678 1.0322807 -0.35217002
7926.03 15819.481 1.0369346 -0.34500812
7926.95 15819.285 1.0318121 -0.34296792
7927.87 15819.088 1.0309229 -0.34705241
7928.78 15818.892 1.0300795 -0.34565045
7929.70 15818.696 1.0325592 -0.34171194
7930.62 15818.499 1.0331488 -0.34286916
7931.53 15818.303 1.0318705 -0.34410556
7932.45 15818.106 1.0268202 -0.33550495
7933.36 15817.910 1.0263575 -0.33898982
7934.28 15817.713 1.0340175 -0.33818873
7935.20 15817.517 1.030064 -0.33566246
7936.11 15817.320 1.0256505 -0.33715207
7937.03 15817.124 1.0327095 -0.33870126
7937.94 15816.927 1.0256241 -0.33637599
7938.86 15816.731 1.0340577 -0.33866615
7939.78 15816.534 1.0251094 -0.34022483
7940.69 15816.338 1.0248547 -0.34014153
7941.61 15816.141 1.024328 -0.33848104
7942.53 15815.945 1.0245567 -0.33610075
7943.45 15815.748 1.031146 -0.33698669
7944.36 15815.552 1.027455 -0.33529986
7945.28 15815.355 1.0290786 -0.3369174
7946.19 15815.159 1.023124 -0.33396992
