# Sweep from 15806.644Hz to 15837.928Hz step 0.2606999999999971Hz delay 0.9s
# Excitation 0.002956Vpp attenuator 0 dB
# time(s), freq(Hz), absorption(nA), dispersion(nA)
12828.51 15806.644 3.334834 -0.41160871
12829.42 15806.905 3.3380809 -0.41706849
12830.34 15807.165 3.3340859 -0.40939352
12831.26 15807.426 3.3372266 -0.40941427
12832.18 15807.687 3.3426493 -0.41100191
12833.10 15807.948 3.3362439 -0.41483887
12834.01 15808.208 3.3392566 -0.41511802
12834.93 15808.469 3.3370848 -0.42027276
12835.84 15808.730 3.3428676 -0.41475806
12836.76 15808.990 3.3384222 -0.42030453
12837.68 15809.251 3.3384679 -0.41940103
12838.60 15809.512 3.3400631 -0.42162657
12839.51 15809.772 3.3363849 -0.41666627
12840.43 15810.033 3.3372044 -0.41765313
12841.35 15810.294 3.3444874 -0.42418347
12842.26 15810.555 3.3354427 -0.41589223
12843.18 15810.815 3.3416252 -0.41629539
12844.10 15811.076 3.3422666 -0.42501239
12845.01 15811.337 3.3421136 -0.4268484
12845.93 15811.597 3.3376164 -0.42783194
12846.84 15811.858 3.3426277 -0.4265149
12847.76 15812.119 3.3483252 -0.43070702
12848.67 15812.379 3.3401709 -0.42932038
12849.59 15812.640 3.341861 -0.43057938
12850.50 15812.901 3.3374756 -0.42958669
12851.42 15813.162 3.3447011 -0.43525182
12852.33 15813.422 3.3457486 -0.43083122
12853.25 15813.683 3.3410322 -0.43272067
12854.17 15813.944 3.3404049 -0.43354294
12855.08 15814.204 3.3460367 -0.43673597
12856.00 15814.465 3.3493523 -0.4405376
12856.91 15814.726 3.3459503 -0.43900951
12857.83 15814.986 3.345378 -0.4421174
12858.74 15815.247 3.3487022 -0.44881384
12859.66 15815.508 3.3451158 -0.44549131
12860.58 15815.769 3.3471485 -0.44283428
12861.50 15816.029 3.3506285 -0.44819151
12862.41 15816.290 3.3488652 -0.4503004
12863.33 15816.551 3.3479955 -0.45045454
12864.24 15816.811 3.3482829 -0.45113282
12865.16 15817.072 3.3504671 -0.45054804
12866.08 15817.333 3.3503804 -0.46177141
12866.99 15817.593 3.3492586 -0.4628877
12867.91 15817.854 3.3518218 -0.4609031
12868.83 15818.115 3.3502317 -0.46303151
12869.75 15818.376 3.3509239 -0.46684721
12870.67 15818.636 3.3537278 -0.46858804
12871.58 15818.897 3.3566698 -0.47690082
12872.50 15819.158 3.3622205 -0.48351649
12873.42 15819.418 3.3567628 -0.48482212
12874.34 15819.679 3.3646993 -0.49031479
12875.25 15819.940 3.3667295 -0.49083786
12876.17 15820.200 3.3706426 -0.49197678
12877.09 15820.461 3.369551 -0.50357318
12878.01 15820.722 3.3709439 -0.50262088
12878.92 15820.983 3.3764838 -0.50495339
12879.84 15821.243 3.3816639 -0.51446739
12880.75 15821.504 3.382102 -0.5227152
12881.67 15821.765 3.394204 -0.53185579
12882.58 15822.025 3.3962103 -0.54275455
12883.50 15822.286 3.4159962 -0.55980655
12884.42 15822.547 3.422844 -0.57357784
12885.33 15822.807 3.450408 -0.59460262
12886.25 15823.068 3.7214968 -0.40270447
12887.16 15823.329 3.7251457 -0.056039472
12888.08 15823.590 3.707363 -0.052335672
12888.99 15823.850 3.69399 -0.045066116
12889.91 15824.111 3.6828003 -0.044236145
12890.82 15824.372 3.6626382 -0.041378055
12891.74 15824.632 3.6574556 -0.051084626
12892.66 15824.893 3.6487731 -0.04607525
12893.58 15825.154 3.6343179 -0.045631893
12894.50 15825.414 3.6186889 -0.049541494
12895.42 15825.675 3.6094798 -0.05437948
12896.34 15825.936 3.5994824 -0.053277329
12897.25 15826.197 3.5867813 -0.058411082
12898.17 15826.457 3.5725604 -0.063178035
12899.09 15826.718 3.5627565 -0.065829298
12900.01 15826.979 3.5527605 -0.070238741
12900.92 15827.239 3.5369756 -0.072641647
12901.84 15827.500 3.5297799 -0.080901991
12902.76 15827.761 3.5171493 -0.086508642
12903.67 15828.021 3.506359 -0.093798171
12904.59 15828.282 3.4949887 -0.09933067
12905.51 15828.543 3.481455 -0.10661034
12906.43 15828.803 3.4754394 -0.11509123
12907.34 15829.064 3.4655202 -0.11983889
12908.26 15829.325 3.4550897 -0.12824736
12909.17 15829.586 3.4447482 -0.13609441
12910.09 15829.846 3.4460909 -0.13941575
12911.01 15830.107 3.4312591 -0.14958044
12911.92 15830.368 3.4265424 -0.16081471
12912.84 15830.628 3.4115328 -0.16208261
12913.75 15830.889 3.4139409 -0.1704354
12914.67 15831.150 3.4083337 -0.17454632
12915.59 15831.410 3.4021173 -0.19335793
12916.50 15831.671 3.3992201 -0.19324594
12917.42 15831.932 3.3902309 -0.19621953
12918.33 15832.193 3.3893259 -0.20134009
12919.25 15832.453 3.3843965 -0.20541404
12920.17 15832.714 3.3809758 -0.20776831
12921.09 15832.975 3.3792171 -0.21560632
12922.00 15833.235 3.3764495 -0.21566454
12922.92 15833.496 3.3726549 -0.22413919
12923.83 15833.757 3.3687904 -0.22765003
12924.75 15834.017 3.3720182 -0.23208297
12925.67 15834.278 3.3679221 -0.23845763
12926.58 15834.539 3.3688273 -0.24050897
12927.50 15834.800 3.3590663 -0.24042114
12928.42 15835.060 3.3593021 -0.24395823
12929.33 15835.321 3.3646206 -0.24495873
12930.25 15835.582 3.3603212 -0.25330576
12931.16 15835.842 3.3570814 -0.25476604
12932.08 15836.103 3.3550396 -0.26051697
12932.99 15836.364 3.3558238 -0.25878359
12933.91 15836.624 3.3513538 -0.26403293
12934.82 15836.885 3.351945 -0.26674317
12935.74 15837.146 3.3523111 -0.26541176
12936.66 15837.407 3.3528652 -0.26896336
12937.58 15837.667 3.3530548 -0.26608527
12938.49 15837.928 3.3432696 -0.27460396
