# Sweep from 15805.342Hz to 15840.133Hz step 0.2899249999999938Hz delay 0.8s
# Excitation 0.004218Vpp attenuator 0 dB
# time(s), freq(Hz), absorption(nA), dispersion(nA)
80695.48 15805.342 4.7454146 -0.46098151
80696.30 15805.632 4.7467433 -0.4591929
80697.12 15805.922 4.7441863 -0.46601141
80697.94 15806.212 4.7486724 -0.46547069
80698.77 15806.502 4.7468916 -0.46531977
80699.59 15806.792 4.7465642 -0.46338874
80700.40 15807.082 4.7505509 -0.46823951
80701.22 15807.371 4.7502599 -0.46811206
80702.03 15807.661 4.7417998 -0.47106201
80702.85 15807.951 4.750008 -0.47889506
80703.67 15808.241 4.749751 -0.4681319
80704.49 15808.531 4.7540184 -0.47129353
80705.30 15808.821 4.7459143 -0.47533246
80706.12 15809.111 4.7538247 -0.47367865
80706.94 15809.401 4.7508065 -0.48114953
80707.75 15809.691 4.7518406 -0.48114555
80708.57 15809.981 4.7544677 -0.47956343
80709.38 15810.271 4.7474841 -0.47764314
80710.20 15810.561 4.7578469 -0.47999242
80711.02 15810.851 4.7518201 -0.48082882
80711.84 15811.141 4.7552176 -0.48242549
80712.65 15811.430 4.7578278 -0.48353832
80713.47 15811.720 4.7577546 -0.48874659
80714.29 15812.010 4.7593612 -0.49021122
80715.11 15812.300 4.7561171 -0.49332556
80715.93 15812.590 4.7581634 -0.49061384
80716.74 15812.880 4.7554072 -0.49452456
80717.56 15813.170 4.7642716 -0.49934613
80718.38 15813.460 4.7611479 -0.50340748
80719.20 15813.750 4.7716903 -0.50119542
80720.02 15814.040 4.7716326 -0.50377332
80720.83 15814.330 4.7702829 -0.50937194
80721.65 15814.620 4.7667031 -0.51412752
80722.46 15814.910 4.7728331 -0.51210634
80723.28 15815.199 4.7746116 -0.51679456
80724.09 15815.489 4.7793683 -0.51875833
80724.91 15815.779 4.777844 -0.51815312
80725.73 15816.069 4.7797757 -0.53037536
80726.54 15816.359 4.7811027 -0.52544448
80727.36 15816.649 4.7836779 -0.53027782
80728.18 15816.939 4.7866552 -0.53190831
80729.00 15817.229 4.8011334 -0.53767326
80729.81 15817.519 4.7980107 -0.54562332
80730.62 15817.809 4.7999974 -0.54404069
80731.44 15818.099 4.8109141 -0.55073366
80732.26 15818.389 4.8079182 -0.56007315
80733.07 15818.679 4.8193092 -0.56496532
80733.89 15818.968 4.8272132 -0.56619297
80734.70 15819.258 4.8418751 -0.57817539
80735.52 15819.548 4.8506331 -0.58187919
80736.33 15819.838 4.8581251 -0.59317034
80737.15 15820.128 4.8740089 -0.60168719
80737.96 15820.418 4.9040518 -0.60910435
80738.78 15820.708 4.9444784 -0.61800068
80739.59 15820.998 5.0603303 -0.60239063
80740.41 15821.288 5.2089777 -0.29300102
80741.23 15821.578 5.1995185 -0.26666348
80742.05 15821.868 5.1829343 -0.25012582
80742.86 15822.158 5.1711618 -0.23430879
80743.68 15822.448 5.1661432 -0.22595208
80744.49 15822.737 5.1538627 -0.21797204
80745.31 15823.027 5.1339712 -0.20456095
80746.12 15823.317 5.1263933 -0.1997977
80746.94 15823.607 5.1108232 -0.18864137
80747.76 15823.897 5.0971062 -0.18101942
80748.58 15824.187 5.0774697 -0.17518909
80749.39 15824.477 5.0704912 -0.17855244
80750.21 15824.767 5.0539816 -0.17138699
80751.03 15825.057 5.039079 -0.1649363
80751.84 15825.347 5.0333656 -0.16799727
80752.66 15825.637 5.0168373 -0.17088288
80753.48 15825.927 5.0043859 -0.16883062
80754.29 15826.217 4.9866576 -0.16343455
80755.11 15826.507 4.9741243 -0.16370407
80755.92 15826.796 4.9658383 -0.16480178
80756.74 15827.086 4.9502087 -0.16712342
80757.56 15827.376 4.9383398 -0.17582725
80758.37 15827.666 4.9246396 -0.17581
80759.19 15827.956 4.9155947 -0.17550988
80760.00 15828.246 4.9091159 -0.18274548
80760.82 15828.536 4.8973207 -0.18163742
80761.64 15828.826 4.8867487 -0.1871321
80762.45 15829.116 4.8783218 -0.19158094
80763.27 15829.406 4.8756297 -0.19804216
80764.09 15829.696 4.8636311 -0.19601354
80764.90 15829.986 4.8512011 -0.19910303
80765.71 15830.276 4.8530228 -0.20092487
80766.53 15830.565 4.8391321 -0.20745154
80767.35 15830.855 4.8370189 -0.21418809
80768.17 15831.145 4.8333263 -0.21826094
80768.98 15831.435 4.8279444 -0.22103234
80769.80 15831.725 4.8179918 -0.22932801
80770.62 15832.015 4.8201546 -0.22560511
80771.43 15832.305 4.8072525 -0.23411276
80772.25 15832.595 4.8072216 -0.23759836
80773.06 15832.885 4.8004263 -0.24735155
80773.88 15833.175 4.8008565 -0.24588206
80774.70 15833.465 4.7975909 -0.2480545
80775.51 15833.755 4.7902395 -0.24826846
80776.33 15834.045 4.793631 -0.25380831
80777.15 15834.335 4.7894155 -0.25952289
80777.97 15834.624 4.7868393 -0.26151397
80778.78 15834.914 4.7805183 -0.26707323
80779.60 15835.204 4.7718472 -0.26925835
80780.42 15835.494 4.778426 -0.2698647
80781.24 15835.784 4.7761705 -0.27138827
80782.05 15836.074 4.7693734 -0.27455556
80782.87 15836.364 4.7704029 -0.27952834
80783.69 15836.654 4.7687222 -0.2825978
80784.50 15836.944 4.7717276 -0.28392174
80785.32 15837.234 4.7641247 -0.28210337
80786.13 15837.524 4.7671992 -0.28893916
80786.95 15837.814 4.7639364 -0.29040604
80787.77 15838.104 4.7628532 -0.28776012
80788.59 15838.393 4.7630006 -0.28414104
80789.41 15838.683 4.7657059 -0.29159969
80790.22 15838.973 4.7594913 -0.29297621
80791.04 15839.263 4.7570702 -0.29756944
80791.85 15839.553 4.7561616 -0.30108725
80792.67 15839.843 4.7565522 -0.29968723
80793.49 15840.133 4.756309 -0.30174439
