# Sweep from 15804.091Hz to 15846.642Hz step 0.3545916666666623Hz delay 0.8s
# Excitation 0.001380Vpp attenuator 0 dB
# time(s), freq(Hz), absorption(nA), dispersion(nA)
67848.53 15804.091 1.5333871 -0.34249669
67849.34 15804.446 1.5369407 -0.34317458
67850.16 15804.800 1.5386273 -0.343842
67850.97 15805.155 1.5349978 -0.34398661
67851.79 15805.509 1.5425288 -0.33987058
67852.61 15805.864 1.5393366 -0.34698374
67853.42 15806.219 1.5343255 -0.34816267
67854.24 15806.573 1.539694 -0.34873392
67855.06 15806.928 1.5384436 -0.34375046
67855.87 15807.282 1.5394749 -0.34869541
67856.69 15807.637 1.5407624 -0.34523018
67857.51 15807.992 1.5412639 -0.34417278
67858.33 15808.346 1.5392335 -0.3462998
67859.14 15808.701 1.539519 -0.34620814
67859.96 15809.055 1.5423459 -0.34717189
67860.78 15809.410 1.534313 -0.34531709
67861.59 15809.764 1.5379321 -0.35095377
67862.41 15810.119 1.5415056 -0.35260055
67863.23 15810.474 1.5455716 -0.35158317
67864.05 15810.828 1.5395336 -0.34825061
67864.87 15811.183 1.5473939 -0.34259432
67865.68 15811.537 1.5413609 -0.35676311
67866.50 15811.892 1.5407957 -0.35612857
67867.31 15812.247 1.5460223 -0.35760058
67868.13 15812.601 1.5467858 -0.35501688
67868.95 15812.956 1.5417673 -0.35702638
67869.76 15813.310 1.5454941 -0.34930852
67870.58 15813.665 1.5422847 -0.35935815
67871.39 15814.020 1.5462699 -0.36056957
67872.21 15814.374 1.5498467 -0.36174879
67873.02 15814.729 1.5462646 -0.35699267
67873.84 15815.083 1.5484966 -0.35808705
67874.65 15815.438 1.5493133 -0.3581284
67875.48 15815.793 1.5529182 -0.36509604
67876.29 15816.147 1.557643 -0.36116117
67877.10 15816.502 1.5466454 -0.36343488
67877.92 15816.856 1.5539085 -0.36179523
67878.74 15817.211 1.553796 -0.36345472
67879.55 15817.565 1.5580652 -0.37355787
67880.37 15817.920 1.5547766 -0.37059615
67881.18 15818.275 1.5573703 -0.3678673
67882.00 15818.629 1.5673231 -0.36982803
67882.81 15818.984 1.5673637 -0.37410908
67883.63 15819.338 1.570926 -0.3730014
67884.45 15819.693 1.5734463 -0.37793419
67885.26 15820.048 1.5726395 -0.37638995
67886.08 15820.402 1.5846002 -0.37840536
67886.90 15820.757 1.5863608 -0.38025431
67887.71 15821.111 1.5880577 -0.37857083
67888.53 15821.466 1.5873849 -0.38077997
67889.34 15821.821 1.5951304 -0.38015762
67890.16 15822.175 1.6010105 -0.37714256
67890.97 15822.530 1.6089438 -0.38018928
67891.79 15822.884 1.6171077 -0.37690242
67892.60 15823.239 1.6223013 -0.37681707
67893.42 15823.594 1.6339793 -0.37163878
67894.24 15823.948 1.6368529 -0.36207464
67895.05 15824.303 1.6478286 -0.35216709
67895.87 15824.657 1.6614734 -0.34433114
67896.69 15825.012 1.6589248 -0.33976823
67897.50 15825.367 1.661799 -0.31797651
67898.31 15825.721 1.6568638 -0.31502114
67899.13 15826.076 1.6562898 -0.29651534
67899.95 15826.430 1.6484714 -0.28762372
67900.76 15826.785 1.639595 -0.28427348
67901.58 15827.139 1.6373058 -0.27273597
67902.40 15827.494 1.6288634 -0.27021798
67903.21 15827.849 1.617829 -0.26768947
67904.03 15828.203 1.6050901 -0.26862762
67904.85 15828.558 1.6074401 -0.25978423
67905.66 15828.912 1.5960907 -0.26470988
67906.48 15829.267 1.586148 -0.26411928
67907.29 15829.622 1.5836852 -0.26092977
67908.11 15829.976 1.5818845 -0.26333927
67908.92 15830.331 1.5762228 -0.26699792
67909.74 15830.685 1.5745818 -0.2628787
67910.56 15831.040 1.571835 -0.26565348
67911.37 15831.395 1.5680877 -0.26441964
67912.19 15831.749 1.5568862 -0.26829426
67913.01 15832.104 1.5580869 -0.26985191
67913.82 15832.458 1.5549734 -0.27478924
67914.64 15832.813 1.5553589 -0.27070544
67915.46 15833.168 1.5544207 -0.27507255
67916.28 15833.522 1.5496639 -0.27432716
67917.09 15833.877 1.547819 -0.27806635
67917.91 15834.231 1.5503748 -0.2814902
67918.72 15834.586 1.5548795 -0.28031374
67919.54 15834.940 1.5471653 -0.28343675
67920.35 15835.295 1.5475498 -0.28203954
67921.17 15835.650 1.55358 -0.28742451
67921.98 15836.004 1.5406935 -0.28421334
67922.80 15836.359 1.5460578 -0.28924086
67923.62 15836.713 1.5456817 -0.28673179
67924.43 15837.068 1.5483014 -0.28748534
67925.25 15837.423 1.5461304 -0.28540848
67926.06 15837.777 1.5451333 -0.29371242
67926.88 15838.132 1.5433443 -0.28812678
67927.69 15838.486 1.5398058 -0.28957618
67928.51 15838.841 1.5438271 -0.29004886
67929.33 15839.196 1.5427203 -0.29888196
67930.15 15839.550 1.540669 -0.2948037
67930.96 15839.905 1.5372206 -0.29446082
67931.78 15840.259 1.5423597 -0.28916045
67932.59 15840.614 1.5422318 -0.29506813
67933.41 15840.969 1.5417169 -0.29157397
67934.22 15841.323 1.5397748 -0.29186765
67935.04 15841.678 1.5365453 -0.29274148
67935.85 15842.032 1.5351385 -0.29994354
67936.67 15842.387 1.5377798 -0.29493697
67937.49 15842.741 1.5421281 -0.29599101
67938.30 15843.096 1.5374035 -0.30036426
67939.11 15843.451 1.5383571 -0.29748799
67939.93 15843.805 1.5409964 -0.29486543
67940.75 15844.160 1.5374217 -0.29923203
67941.56 15844.514 1.535719 -0.29530744
67942.38 15844.869 1.5333949 -0.29802763
67943.19 15845.224 1.542106 -0.30486481
67944.01 15845.578 1.5338029 -0.29975257
67944.82 15845.933 1.5404464 -0.29550358
67945.64 15846.287 1.5386412 -0.30357137
67946.45 15846.642 1.535028 -0.29976914
